subExp,govComp,idx,sentence,opt1,swapped,prodQuotN1,cond,fNoLe,n1,n2,fLe,block,opt2,introloop1.thisRepN,introloop1.thisTrialN,introloop1.thisN,introloop1.thisIndex,introloop2.thisRepN,introloop2.thisTrialN,introloop2.thisN,introloop2.thisIndex,testruns.thisRepN,testruns.thisTrialN,testruns.thisN,testruns.thisIndex,realruns.thisRepN,realruns.thisTrialN,realruns.thisN,realruns.thisIndex,key_resp_2.keys,key_resp_2.rt,rating_2.response,rating_2.rt,key_resp_3.keys,key_resp_3.rt,key_resp_4.keys,key_resp_4.rt,key_resp_5.keys,key_resp_5.rt,rating_3.response,rating_3.rt,key_resp_7.keys,key_resp_7.rt,key_resp_6.keys,key_resp_6.rt,rating.response,rating.rt,key_resp_8.keys,key_resp_8.rt,date,frameRate,expName,session,participant,
,,,,,,,,,,,,,,,,,,,,,,,,,,,,,,space,4.35339713097,75,18.104,,,,,,,,,,,,,,,,,2017_Jun_20_1439,60.1438242333,split,001,379,
,,,,,,,,,,,,,,,,,,,,,,,,,,,,,,,,,,space,6.57522988319,j,8.84543991089,,,,,,,,,,,,,2017_Jun_20_1439,60.1438242333,split,001,379,
,,,,,,,,,,,,,,,,,,,,,,,,,,,,,,,,,,,,,,space,3.3254430294,,,,,,,,,,,2017_Jun_20_1439,60.1438242333,split,001,379,
,,,,,,,,,,,,,,,,,,,,,,,,,,,,,,,,,,,,,,,,100,6.984,7,4.98794794083,space,5.28738713264,,,,,2017_Jun_20_1439,60.1438242333,split,001,379,
schreib,x,28,"Maria hat einen Kopfhörer gekauft, nachdem sie ihn __________ hatte.",Probe gehört,True,0.0,x,0,x,x,0,1,probegehört,,,,,,,,,,,,,0,0,0,0,,,,,,,,,,,,,,,,,0,11.957,2,2.27801799774,2017_Jun_20_1439,60.1438242333,split,001,379,
x,x,46,"Es waren nur kleinere Delikte,  __________ sie überführt wurden.",deren,False,0.0,x,0,x,x,0,1,derer,,,,,,,,,,,,,0,1,1,1,,,,,,,,,,,,,,,,,100,8.432,3,3.95725107193,2017_Jun_20_1439,60.1438242333,split,001,379,
pl,y,13,In einer Biologie-Studie führt Johanna viele __________ durch.,Blattanalysen,False,0.5334598,pl,0,Blatt,Analyse,0,1,Blätteranalysen,,,,,,,,,,,,,0,2,2,2,,,,,,,,,,,,,,,,,0,12.433,4,3.24219107628,2017_Jun_20_1439,60.1438242333,split,001,379,
x,x,36,Sie verlassen wegen  __________ die Wohnung.,des Wetters,True,0.0,x,0,x,x,0,1,dem Wetter,,,,,,,,,,,,,0,3,3,3,,,,,,,,,,,,,,,,,42,7.781,9,1.84577894211,2017_Jun_20_1439,60.1438242333,split,001,379,
x,x,48,Kinder sollen sich auf dem __________ sicher fühlen können.,Gehweg,False,0.0,x,0,x,x,0,1,Fußgängerweg,,,,,,,,,,,,,0,4,4,4,,,,,,,,,,,,,,,,,50,12.252,9,3.94064307213,2017_Jun_20_1439,60.1438242333,split,001,379,
x,x,56,Auf __________ wird nur ein sehr geringes Pfand erhoben.,Bierflaschen,True,0.0,x,0,x,x,0,1,Biersflaschen,,,,,,,,,,,,,0,5,5,5,,,,,,,,,,,,,,,,,0,5.784,3,3.24235391617,2017_Jun_20_1439,60.1438242333,split,001,379,
x,x,58,Im Magisterstudium musste man mehr __________ schreiben als im BA-Studium.,Seminarsarbeiten,False,0.0,x,0,x,x,0,1,Seminararbeiten,,,,,,,,,,,,,0,6,6,6,,,,,,,,,,,,,,,,,100,7.347,4,6.63403201103,2017_Jun_20_1439,60.1438242333,split,001,379,
x,x,21,Die Fans __________ Fabian die Bude eingerannt.,haben,True,0.0,x,0,x,x,0,1,sind,,,,,,,,,,,,,0,7,7,7,,,,,,,,,,,,,,,,,0,6.12,5,3.60641598701,2017_Jun_20_1439,60.1438242333,split,001,379,
x,x,23,Die Gruppe __________ kurz vor dem Gipfel umgedreht.,hat,True,0.0,x,0,x,x,0,1,ist,,,,,,,,,,,,,0,8,8,8,,,,,,,,,,,,,,,,,60,9.579,1,3.15900111198,2017_Jun_20_1439,60.1438242333,split,001,379,
schreib,x,29,"Kim sah sich das Tennisspiel an, solange sie am __________ war.",Tee trinken,True,0.0,x,0,x,x,0,1,Teetrinken,,,,,,,,,,,,,0,9,9,9,,,,,,,,,,,,,,,,,100,8.428,4,3.04276204109,2017_Jun_20_1439,60.1438242333,split,001,379,
x,x,42,Im Fernrohr sahen wir den roten  __________ ganz deutlich.,Planet,False,0.0,x,0,x,x,0,1,Planeten,,,,,,,,,,,,,0,10,10,10,,,,,,,,,,,,,,,,,100,21.232,8,2.32789683342,2017_Jun_20_1439,60.1438242333,split,001,379,
x,x,34,Er wurde trotz des bekannten Skandals  __________.,wiedergewählt,True,0.0,x,0,x,x,0,1,wieder gewählt,,,,,,,,,,,,,0,11,11,11,,,,,,,,,,,,,,,,,100,12.338,9,1.46318602562,2017_Jun_20_1439,60.1438242333,split,001,379,
coll,n,5,Judith kam mit einem __________ unter dem Arm aus dem Baumarkt.,Bretterbündel,True,0.45619727,coll,0,Brett,Bündel,0,1,Brettbündel,,,,,,,,,,,,,0,12,12,12,,,,,,,,,,,,,,,,,0,9.643,8,1.62959289551,2017_Jun_20_1439,60.1438242333,split,001,379,
x,x,24,Am Ende von Cindys Party sah man am Horizont schon den __________ der aufgehenden Sonne,Licht-Schein,True,0.0,x,0,x,x,0,1,Lichtschein,,,,,,,,,,,,,0,13,13,13,,,,,,,,,,,,,,,,,100,6.245,8,2.61059904099,2017_Jun_20_1439,60.1438242333,split,001,379,
pl,y,9,Wegen der Gentrifizierung in Berlin gibt es zahlreiche __________ .,Häuserabbrüche,True,0.21190723,pl,5,Haus,Abbrüche,1,1,Hausabbrüche,,,,,,,,,,,,,0,14,14,14,,,,,,,,,,,,,,,,,39,16.823,7,2.11177206039,2017_Jun_20_1439,60.1438242333,split,001,379,
x,x,40,"In einer Studie wurde jetzt  __________, dass Aspirin nicht so gut wirkt wie gedacht.",bewiesen,False,0.0,x,0,x,x,0,1,nachgewiesen,,,,,,,,,,,,,0,15,15,15,,,,,,,,,,,,,,,,,100,8.178,8,3.80768895149,2017_Jun_20_1439,60.1438242333,split,001,379,
x,x,17,Gute Qualität hat __________ Preis.,seinen,False,0.0,x,0,x,x,0,1,ihren,,,,,,,,,,,,,0,16,16,16,,,,,,,,,,,,,,,,,100,6.369,2,6.63081908226,2017_Jun_20_1439,60.1438242333,split,001,379,
coll,n,1,Münster hat wegen einer neuen __________ jetzt ein einziges Wochenticket für alle Stadtbäder.,Badkooperation,False,0.984017,coll,0,Bad,Kooperation,0,1,Bäderkooperation,,,,,,,,,,,,,0,17,17,17,,,,,,,,,,,,,,,,,100,13.743,1,4.00712800026,2017_Jun_20_1439,60.1438242333,split,001,379,
schreib,x,27,"Lara trat zur Seite, um __________.",platzzumachen,False,0.0,x,0,x,x,0,1,Platz zu machen,,,,,,,,,,,,,0,18,18,18,,,,,,,,,,,,,,,,,100,6.635,7,7.21181106567,2017_Jun_20_1439,60.1438242333,split,001,379,
pl,y,15,Für die Verladung eines LKWs in den Airbus mussten die Techniker eine __________ durchführen.,Lastberechnung,False,0.8331451,sg,3,Last,Berechnung,1,1,Lastenberechnung,,,,,,,,,,,,,0,19,19,19,,,,,,,,,,,,,,,,,100,12.715,5,1.92886590958,2017_Jun_20_1439,60.1438242333,split,001,379,
x,x,50,"Verglichen mit Ampeln sind __________ sicherer, aber teurer.",Unterführungen,True,0.0,x,0,x,x,0,1,Straßentunnel,,,,,,,,,,,,,0,20,20,20,,,,,,,,,,,,,,,,,0,5.968,1,3.4917318821,2017_Jun_20_1439,60.1438242333,split,001,379,
coll,n,7,Chris besitzt eine große __________ .,Schwertsammlung,False,0.20263783,coll,0,Schwert,Sammlung,1,1,Schwertersammlung,,,,,,,,,,,,,0,21,21,21,,,,,,,,,,,,,,,,,100,5.303,7,1.56307220459,2017_Jun_20_1439,60.1438242333,split,001,379,
x,x,19,Im Urlaub __________ ich jeden Tag bei einem alten Wrack getaucht.,bin,False,0.0,x,0,x,x,0,1,habe,,,,,,,,,,,,,0,22,22,22,,,,,,,,,,,,,,,,,81,10.622,2,3.25895380974,2017_Jun_20_1439,60.1438242333,split,001,379,
x,x,54,Bei der Einreise in viele Länder muss man __________ dabei haben.,Einreisevisa,False,0.0,x,0,x,x,0,1,Einreisevisen,,,,,,,,,,,,,0,23,23,23,,,,,,,,,,,,,,,,,0,7.316,4,6.4666788578,2017_Jun_20_1439,60.1438242333,split,001,379,
x,x,38,"Die Teilnehmerinnen wussten überwiegend nicht, was  __________ ist.",Tupperware,True,0.0,x,0,x,x,0,1,Tupper-Ware,,,,,,,,,,,,,0,24,24,24,,,,,,,,,,,,,,,,,100,7.464,4,4.14021992683,2017_Jun_20_1439,60.1438242333,split,001,379,
coll,n,3,Dank einer __________ ändern sich einige Wanderrouten um Graz.,Wegzusammenlegung,False,0.34460415,coll,0,Weg,Zusammenlegung,0,1,Wegezusammenlegung,,,,,,,,,,,,,0,25,25,25,,,,,,,,,,,,,,,,,100,9.143,5,1.61295604706,2017_Jun_20_1439,60.1438242333,split,001,379,
x,x,52,Beim Lernen einer Sprache gibt es oft erhebliche phonetische __________ .,Anfangsschwierigkeiten,True,0.0,x,0,x,x,0,1,Anfangschwierigkeiten,,,,,,,,,,,,,0,26,26,26,,,,,,,,,,,,,,,,,0,13.913,7,2.41099405289,2017_Jun_20_1439,60.1438242333,split,001,379,
schreib,x,30,"Melanie mag Fußball, weil es ein Sport zum __________ ist.",Spaßhaben,False,0.0,x,0,x,x,0,1,Spaß haben,,,,,,,,,,,,,0,27,27,27,,,,,,,,,,,,,,,,,0,9.775,9,2.52742981911,2017_Jun_20_1439,60.1438242333,split,001,379,
x,x,44,Die Kinder fuhren mit  __________ unzureichenden Helmen zur Schule.,solch,False,0.0,x,0,x,x,0,1,solchen,,,,,,,,,,,,,0,28,28,28,,,,,,,,,,,,,,,,,0,7.332,7,1.43003988266,2017_Jun_20_1439,60.1438242333,split,001,379,
pl,y,11,Die Düsseldorfer Friedhofsverwaltung hat heute erst eine __________ bearbeitet.,Gräberbuchung,True,0.5313495,sg,0,Grab,Buchung,0,1,Grabbuchung,,,,,,,,,,,,,0,29,29,29,,,,,,,,,,,,,,,,,100,7.878,5,3.79100012779,2017_Jun_20_1439,60.1438242333,split,001,379,
schreib,x,26,"Benjamin ruft seinen Freund an, weil er eine Frage zum __________ hat.",Berg Steigen,True,0.0,x,0,x,x,0,2,Bergsteigen,,,,,,,,,,,,,0,30,30,30,,,,,,,,,,,,,,,,,100,7.128,7,6.28142786026,2017_Jun_20_1439,60.1438242333,split,001,379,
coll,n,4,Auf seinem üblichen Wanderweg wurde Marcel von einer neuen __________ überrascht.,Wegebeschriftung,True,0.34460415,indiv,0,Weg,Beschriftung,0,2,Wegbeschriftung,,,,,,,,,,,,,0,31,31,31,,,,,,,,,,,,,,,,,88,14.245,5,1.89558601379,2017_Jun_20_1439,60.1438242333,split,001,379,
x,x,35,Unter keinen Umständen können  __________ vor Dezember stattfinden.,Neu-Wahlen,True,0.0,x,0,x,x,0,2,Neuwahlen,,,,,,,,,,,,,0,32,32,32,,,,,,,,,,,,,,,,,100,5.884,1,6.36720085144,2017_Jun_20_1439,60.1438242333,split,001,379,
pl,n,16,Yannick hat ein Hemd mit einem besonderen __________ anfertigen lassen.,Hemdschlitz,False,0.5650076,sg,0,Hemd,Schlitz,0,2,Hemdenschlitz,,,,,,,,,,,,,0,33,33,33,,,,,,,,,,,,,,,,,0,5.968,2,5.03409385681,2017_Jun_20_1439,60.1438242333,split,001,379,
x,x,18,Svens Feuer __________ noch einmal kurz aufgeflammt.,hat,True,0.0,x,0,x,x,0,2,ist,,,,,,,,,,,,,0,34,34,34,,,,,,,,,,,,,,,,,40,10.527,1,4.60435700417,2017_Jun_20_1439,60.1438242333,split,001,379,
x,x,53,Ullis Hund sprang um uns herum vor __________ .,Wiedersehensfreude,False,0.0,x,0,x,x,0,2,Wiedersehenfreude,,,,,,,,,,,,,0,35,35,35,,,,,,,,,,,,,,,,,0,10.776,7,1.39681816101,2017_Jun_20_1439,60.1438242333,split,001,379,
schreib,x,32,"Leon konnte nur deshalb gewinnen, weil Johanna ihm __________ hat.",mutgemacht,False,0.0,x,0,x,x,0,2,Mut gemacht,,,,,,,,,,,,,0,36,36,36,,,,,,,,,,,,,,,,,100,7.929,5,1.36359214783,2017_Jun_20_1439,60.1438242333,split,001,379,
x,x,51,Man darf im Büro nicht beim __________ erwischt werden.,Nichtsmachen,True,0.0,x,0,x,x,0,2,Nichtstun,,,,,,,,,,,,,0,37,37,37,,,,,,,,,,,,,,,,,60,9.809,6,4.1235768795,2017_Jun_20_1439,60.1438242333,split,001,379,
x,x,37,Die Gäste suchen die Wohnung des Herrn __________.,Gantenbein,False,0.0,x,0,x,x,0,2,Gantenbeins,,,,,,,,,,,,,0,38,38,38,,,,,,,,,,,,,,,,,50,9.509,5,3.60816001892,2017_Jun_20_1439,60.1438242333,split,001,379,
x,x,57,Manche Menschen essen tatsächlich gerne ab und zu eine __________ .,Tüte Suppe,False,0.0,x,0,x,x,0,2,Tütensuppe,,,,,,,,,,,,,0,39,39,39,,,,,,,,,,,,,,,,,50,12.983,4,2.56061887741,2017_Jun_20_1439,60.1438242333,split,001,379,
x,x,47,"Frederick beobachtete einen Einbruch, konnte aber im __________ niemanden erkennen.",Mondschein,False,0.0,x,0,x,x,0,2,Mondschimmer,,,,,,,,,,,,,0,40,40,40,,,,,,,,,,,,,,,,,0,8.078,3,6.90811681747,2017_Jun_20_1439,60.1438242333,split,001,379,
coll,n,2,Neben dem __________ in Lankwitz gab es bis vor kurzem noch einen Kiosk.,Bädereingang,True,0.984017,indiv,2,Bad,Eingang,0,2,Badeingang,,,,,,,,,,,,,0,41,41,41,,,,,,,,,,,,,,,,,0,9.624,2,2.57733106613,2017_Jun_20_1439,60.1438242333,split,001,379,
schreib,x,31,"Sarah ging auf den Spielplatz, um __________.",Seil zu springen,True,0.0,x,0,x,x,0,2,seilzuspringen,,,,,,,,,,,,,0,42,42,42,,,,,,,,,,,,,,,,,0,8.379,2,3.20902395248,2017_Jun_20_1439,60.1438242333,split,001,379,
x,x,25,Die moderne Kindererziehung ist durch ein starkes __________ gekennzeichnet.,Sicherheits-Denken,False,0.0,x,0,x,x,0,2,Sicherheitsdenken,,,,,,,,,,,,,0,43,43,43,,,,,,,,,,,,,,,,,100,7.595,2,4.65346002579,2017_Jun_20_1439,60.1438242333,split,001,379,
x,x,45,Wir  __________ das Auto dem Mann mehr als gerne.,übergaben,False,0.0,x,0,x,x,0,2,überließen,,,,,,,,,,,,,0,44,44,44,,,,,,,,,,,,,,,,,50,10.924,8,2.79351186752,2017_Jun_20_1439,60.1438242333,split,001,379,
coll,n,8,Nach dem Fechtunfall hatte Jonas einen __________ auf dem linken Oberarm.,Schwerterabdruck,True,0.20263783,indiv,0,Schwert,Abdruck,0,2,Schwertabdruck,,,,,,,,,,,,,0,45,45,45,,,,,,,,,,,,,,,,,99,9.041,4,4.73766684532,2017_Jun_20_1439,60.1438242333,split,001,379,
x,x,22,"Teilnehmen kann nur, wer schon mindestens drei Marathons gelaufen __________ .",ist,False,0.0,x,0,x,x,0,2,hat,,,,,,,,,,,,,0,46,46,46,,,,,,,,,,,,,,,,,71,9.245,1,4.489372015,2017_Jun_20_1439,60.1438242333,split,001,379,
pl,n,14,"Bevor sie zu Ikea fuhren, haben Anne, Oskar und Leon alle möglichen __________ berechnet.",Bettlängen,False,0.28060752,pl,7,Bett,Länge,3,2,Bettenlängen,,,,,,,,,,,,,0,47,47,47,,,,,,,,,,,,,,,,,0,8.476,7,1.92886209488,2017_Jun_20_1439,60.1438242333,split,001,379,
x,x,43,Die Autos beider  __________ Fahrer wurden verschrottet.,beteiligter,False,0.0,x,0,x,x,0,2,beteiligten,,,,,,,,,,,,,0,48,48,48,,,,,,,,,,,,,,,,,0,9.976,2,3.80502796173,2017_Jun_20_1439,60.1438242333,split,001,379,
pl,n,12,Für jedes Pixel seines Bildschirmkunstwerks hat Jonas gesondert eine __________ festgelegt.,Punktfarbe,False,0.2778716,sg,0,Punkt,Farbe,0,2,Punktefarbe,,,,,,,,,,,,,0,49,49,49,,,,,,,,,,,,,,,,,100,8.273,5,1.51317477226,2017_Jun_20_1439,60.1438242333,split,001,379,
x,x,41,"Jetzt ist genau die richtige Zeit, um  __________ umzusetzen.",Nadelhölzer,True,0.0,x,0,x,x,0,2,Nadel-Hölzer,,,,,,,,,,,,,0,50,50,50,,,,,,,,,,,,,,,,,0,6.348,3,2.1948890686,2017_Jun_20_1439,60.1438242333,split,001,379,
pl,n,10,In einem physikalischen Experiment hat Max verschiedene __________ gemessen.,Kräftestärken,True,0.5575868,pl,0,Kraft,Stärke,0,2,Kraftstärken,,,,,,,,,,,,,0,51,51,51,,,,,,,,,,,,,,,,,100,8.409,5,3.39139509201,2017_Jun_20_1439,60.1438242333,split,001,379,
x,x,20,Im Urlaub __________ ich jeden Tag zu einem alten Wrack getaucht.,bin,False,0.0,x,0,x,x,0,2,habe,,,,,,,,,,,,,0,52,52,52,,,,,,,,,,,,,,,,,0,12.82,3,1.99536514282,2017_Jun_20_1439,60.1438242333,split,001,379,
x,x,55,Maria und Jenny haben __________ Bilder von ihren Familienurlauben gezeigt.,sich gegenseitig,False,0.0,x,0,x,x,0,2,einander,,,,,,,,,,,,,0,53,53,53,,,,,,,,,,,,,,,,,20,12.468,9,2.04524111748,2017_Jun_20_1439,60.1438242333,split,001,379,
x,x,39,Außer  __________ kann ich leider nichts mitbringen.,dem Essen,False,0.0,x,0,x,x,0,2,das Essen,,,,,,,,,,,,,0,54,54,54,,,,,,,,,,,,,,,,,90,19.969,2,2.24475598335,2017_Jun_20_1439,60.1438242333,split,001,379,
x,x,49,Nora hätte sich beim Einsteigen beinah an der __________ verletzt.,Autotür,True,0.0,x,0,x,x,0,2,Wagentür,,,,,,,,,,,,,0,55,55,55,,,,,,,,,,,,,,,,,51,7.333,4,4.52253890038,2017_Jun_20_1439,60.1438242333,split,001,379,
schreib,x,33,"Simone hört ein Hörbuch, während sie am __________ ist.",Bogen schießen,True,0.0,x,0,x,x,0,2,Bogenschießen,,,,,,,,,,,,,0,56,56,56,,,,,,,,,,,,,,,,,100,6.381,3,1.66279911995,2017_Jun_20_1439,60.1438242333,split,001,379,
coll,n,6,"Svenja gab Leon das Stück Holz, damit er einen korrekten __________ machen konnte.",Brettschliff,False,0.45619727,indiv,1,Brett,Schliff,0,2,Bretterschliff,,,,,,,,,,,,,0,57,57,57,,,,,,,,,,,,,,,,,0,6.731,6,1.71271705627,2017_Jun_20_1439,60.1438242333,split,001,379,
